Folder: isoconversion-auto/dealloy_example (part 2)

File: ExpDat_dealloy_Al_12232023_MACT_A_pink_label_20Kmin_20O2_80Ar_1200C_round_3.csv
#EXPORTTYPE:                 ,DATA ALL
#FILE:                       ,dealloy_Al_12132023_MACT_A_pink_label_20Kmin_20O2_80Ar_1200C_round_3.ngb-ds3
#FORMAT:                     ,NETZSCH5
#FTYPE:                      ,ANSI
#IDENTITY:                   ,De_alloy_MACT_A_pk_R3
#DECIMAL:                    ,POINT
#SEPARATOR:                  ,COMMA
#MTYPE:                      ,DSC
#INSTRUMENT:                 ,NETZSCH STA 449F3
#PROJECT:                    ,nano-Al
#DATE/TIME:                  ,12/13/2023 4:52:31 PM (UTC-5)
#CORR. FILE:                 ,BL_11012023_20Kmin_1200C_10O2_40Ar.ngb-bs3
#TEMPCAL:                    ,03-05-2023 11:25
#SENSITIVITY:                ,03-05-2023 11:53
#LABORATORY:                 ,calorimetry lab
#OPERATOR:                   ,YP
#REMARK:                     ,dealloy_Al_12132023_MACT_A_pink_label_20Kmin_20O2_80Ar_1200C_round_3
#SAMPLE:                     ,De_alloy_MACT_A_pk_R3
#SAMPLE MASS /mg:            ,5.6368
#MATERIAL:                   ,mt
#REFERENCE:                  ,empty
#REFERENCE MASS /mg:         ,0
#TYPE OF CRUCIBLE:           ,Al2O3 85 µl, with lid
#SAMPLE CRUCIBLE MASS /mg:   ,0
#REFERENCE CRUCIBLE MASS /mg:,0
#DSC RANGE /µV:              ,5000
#TG RANGE /mg:               ,35000
#TAU-R:                      ,---
#CORR. CODE:                 ,020
#EXO:                        ,+1
#RANGE:                      ,50°C/20.0(K/min)/1200°C
#SEGMENT:                    ,S3/3
#SEG. 3:                     ,50°C/20.0(K/min)/1200°C

##Temp./°C,Time/min,DSC/(mW/mg),Mass/%,Sensit./(uV/mW)
  49.62800,36.01333,-3.791127e-02, 99.26040,0.73546
  49.69400,36.29333,-2.925997e-02, 99.23680,0.73550
  49.96400,36.57333,-4.047622e-03, 99.29375,0.73567
  50.61400,36.85333, 5.222246e-02, 99.27796,0.73607
  51.79200,37.13333,      0.12088, 99.19759,0.73679
  53.50900,37.41333,      0.20857, 99.22704,0.73784
  55.76400,37.69333,      0.29590, 99.31131,0.73919
  58.47500,37.97333,      0.38754, 99.26412,0.74077
  61.57200,38.25333,      0.47375, 99.22687,0.74254
  65.04900,38.53333,      0.55925, 99.27601,0.74446
  68.85000,38.81333,      0.65256, 99.26412,0.74648
  72.98300,39.09333,      0.76770, 99.22687,0.74860
  77.48700,39.37333,      0.90029, 99.24656,0.75080
  82.41000,39.65333,      1.05428, 99.24070,0.75309
  87.69100,39.93333,      1.23596, 99.15821,0.75540
  93.38300,40.21333,      1.43294, 99.18003,0.75773
  99.36800,40.49333,      1.64433, 99.11315,0.75999
 105.647,40.77333,      1.86054, 99.11705,0.76218
 112.135,41.05333,      2.09697, 98.97974,0.76422
 118.867,41.33333,      2.34177, 98.85219,0.76611
 125.811,41.61333,      2.60924, 98.72268,0.76783
 132.921,41.89333,      2.89757, 98.53640,0.76934
 140.21,42.17333,      3.19641, 98.43440,0.77063
 147.626,42.45333,      3.52551, 98.22240,0.77167
 155.144,42.73333,      3.86638, 98.05191,0.77246
 162.704,43.01333,      4.23865, 97.85552,0.77298
 170.279,43.29333,      4.63108, 97.68291,0.77324
 177.877,43.57333,      5.04527, 97.58107,0.77324
 185.489,43.85333,      5.49475, 97.44571,0.77297
 193.108,44.13333,      5.97562, 97.25731,0.77244
 200.655,44.41333,      6.48584, 97.13366,0.77168
 208.17,44.69333,      7.00838, 97.02775,0.77067
 215.596,44.97333,      7.51809, 96.85708,0.76944
 222.912,45.25333,      7.97409, 96.73148,0.76801
 230.136,45.53333,      8.35991, 96.61173,0.76639
 237.27,45.81333,      8.66553, 96.50387,0.76458
 244.276,46.09333,      8.90434, 96.40594,0.76262
 251.157,46.37333,      9.09111, 96.26650,0.76052
 257.932,46.65333,      9.23918, 96.16059,0.75828
 264.612,46.93333,      9.34621, 95.96633,0.75591
 271.155,47.21333,      9.45662, 95.93706,0.75343
 277.609,47.49333,      9.56391, 95.81731,0.75086
 283.944,47.77333,      9.67323, 95.81323,0.74819
 290.202,48.05333,      9.77493, 95.74085,0.74543
 296.363,48.33333,      9.88424, 95.59360,0.74260
 302.433,48.61333,      9.98783, 95.53488,0.73969
 308.426,48.89333,     10.09080, 95.48574,0.73672
 314.376,49.17333,     10.19608, 95.46019,0.73367
 320.253,49.45333,     10.30270, 95.48379,0.73055
 326.075,49.73333,     10.39846, 95.39739,0.72738
 331.829,50.01333,     10.48400, 95.51519,0.72415
 337.561,50.29333,     10.55669, 95.48574,0.72086
 343.244,50.57333,     10.62382, 95.54464,0.71752
 348.885,50.85333,     10.67620, 95.52885,0.71412
 354.475,51.13333,     10.72398, 95.61702,0.71069
 360.065,51.41333,     10.75470, 95.64647,0.70719
 365.606,51.69333,     10.77738, 95.73481,0.70365
 371.157,51.97333,     10.78375, 95.82902,0.70005
 376.667,52.25333,     10.78233, 95.87621,0.69641
 382.166,52.53333,     10.76327, 95.97023,0.69273
 387.664,52.81333,     10.72578, 96.02913,0.68899
 393.131,53.09333,     10.69328, 96.03498,0.68522
 398.599,53.37333,     10.66574, 96.16059,0.68141
 404.065,53.65333,     10.65557, 96.18613,0.67755
 409.529,53.93333,     10.66542, 96.30766,0.67365
 414.996,54.21333,     10.70618, 96.33320,0.66971
 420.462,54.49333,     10.79378, 96.46271,0.66573
 425.927,54.77333,     10.93579, 96.56472,0.66171
 431.384,55.05333,     11.14668, 96.63745,0.65767
 436.854,55.33333,     11.43378, 96.75898,0.65358
 442.333,55.61333,     11.70577, 96.88050,0.64946
 447.813,55.89333,     12.20512, 97.10031,0.64531
 453.31,56.17333,     12.77036, 97.23567,0.64113
 458.802,56.45333,     13.42228, 97.38877,0.63692
 464.304,56.73333,     14.16092, 97.63394,0.63269
 469.798,57.01333,     14.98755, 97.89881,0.62845
 475.299,57.29333,     15.92679, 98.28342,0.62418
 480.831,57.57333,     16.98372, 98.68950,0.61987
 486.346,57.85333,     18.16379, 99.05620,0.61557
 491.881,58.13333,     19.47443, 99.59782,0.61124
 497.417,58.41333,     20.88880,100.131,0.60691
 502.956,58.69333,     22.37122,100.743,0.60256
 508.494,58.97333,     23.84745,101.452,0.59821
 514.032,59.25333,     25.19721,102.238,0.59386
 519.575,59.53333,     26.27179,103.035,0.58951
 525.086,59.81333,     26.99979,103.851,0.58519
 530.592,60.09333,     27.30320,104.644,0.58087
 536.077,60.37333,     27.23519,105.438,0.57658
 541.545,60.65333,     26.87425,106.16,0.57230
 547.003,60.93333,     26.35601,106.863,0.56805
 552.474,61.21333,     25.78285,107.532,0.56379
 557.93,61.49333,     25.24582,108.124,0.55956
 563.399,61.77333,     24.82495,108.797,0.55534
 568.871,62.05333,     24.56157,109.356,0.55112
 574.365,62.33333,     24.56211,109.837,0.54691
 579.869,62.61333,     24.97538,110.429,0.54271
 585.407,62.89333,     26.09404,111.163,0.53851
 590.97,63.17333,     28.29532,111.881,0.53431
 596.59,63.45333,     32.11536,112.921,0.53009
 602.446,63.73333,     45.13316,114.894,0.52572
 607.944,64.01333,     35.58752,115.834,0.52165
 613.33,64.29333,     30.52061,116.597,0.51768
 618.719,64.57333,     26.75872,117.121,0.51375
 624.132,64.85333,     23.71154,117.519,0.50982
 629.564,65.13333,     21.22957,117.713,0.50591
 635.031,65.41333,     19.26598,117.91,0.50201
 640.512,65.69333,     17.76915,118.072,0.49813
 646.021,65.97333,     16.65609,118.137,0.49426
 651.552,66.25333,     15.90018,118.332,0.49042
 657.098,66.53333,     15.39379,118.353,0.48660
 662.668,66.81333,     14.58213,118.335,0.48281
 668.252,67.09333,     15.06040,118.439,0.47904
 673.835,67.37333,     15.12945,118.463,0.47532
 679.434,67.65333,     15.13174,118.486,0.47162
 685.03,67.93333,     15.14739,118.516,0.46797
 690.618,68.21333,     15.18329,118.518,0.46437
[...]
 774.674,72.41333,     16.19547,118.271,0.41567
 780.272,72.69333,     16.31470,118.302,0.41280
 785.87,72.97333,     16.44489,118.424,0.40999
 791.493,73.25333,     16.57243,118.402,0.40721
 797.093,73.53333,     16.71633,118.343,0.40449
 802.702,73.81333,     16.86439,118.241,0.40181
 808.316,74.09333,     17.05148,118.271,0.39918
 813.937,74.37333,     17.24456,118.269,0.39659
 819.547,74.65333,     17.44541,118.282,0.39406
 825.154,74.93333,     17.63181,118.196,0.39158
 830.769,75.21333,     17.78589,118.225,0.38913
 836.401,75.49333,     17.85540,118.237,0.38673
 842.001,75.77333,     17.82895,118.31,0.38439
 847.611,76.05333,     17.71948,118.165,0.38209
 853.246,76.33333,     17.53897,118.202,0.37983
 858.865,76.61333,     17.35034,118.149,0.37761
 864.473,76.89333,     17.16445,118.18,0.37545
 870.082,77.17333,     17.02446,118.273,0.37333
 875.698,77.45333,     16.94371,118.204,0.37125
 881.307,77.73333,     16.93109,118.367,0.36922
 886.916,78.01333,     16.93148,118.447,0.36723
 892.536,78.29333,     16.95346,118.353,0.36527
 898.136,78.57333,     17.00025,118.457,0.36337
 903.76,78.85333,     17.05162,118.439,0.36150
 909.373,79.13333,     17.08940,118.557,0.35967
 914.995,79.41333,     17.14323,118.685,0.35788
 920.61,79.69333,     17.18917,118.688,0.35612
 926.22,79.97333,     17.23021,118.689,0.35441
 931.851,80.25333,     17.26285,118.916,0.35273
 937.483,80.53333,     17.31946,118.928,0.35108
 943.091,80.81333,     17.36558,119.124,0.34948
 948.711,81.09333,     17.40784,119.198,0.34791
 954.326,81.37333,     17.43111,119.165,0.34637
 959.941,81.65333,     17.45213,119.297,0.34487
 965.549,81.93333,     17.47987,119.481,0.34340
 971.166,82.21333,     17.45728,119.62,0.34196
 976.765,82.49333,     17.44503,119.677,0.34056
 982.387,82.77333,     17.35322,119.854,0.33918
 988,83.05333,     17.23864,119.948,0.33783
 993.603,83.33333,     17.10873,120.024,0.33651
 999.221,83.61333,     17.00406,120.132,0.33521
1004.85,83.89333,     16.89656,120.315,0.33394
1010.47,84.17333,     16.79781,120.456,0.33270
1016.1,84.45333,     16.69850,120.531,0.33147
1021.73,84.73333,     16.55213,120.719,0.33028
1027.36,85.01333,     16.33029,120.862,0.32910
1032.98,85.29333,     16.12722,120.888,0.32795
1038.61,85.57333,     15.86998,121.149,0.32682
1044.24,85.85333,     15.55435,121.123,0.32571
1049.85,86.13333,     15.16754,121.374,0.32462
1055.46,86.41333,     14.77477,121.574,0.32354
1061.09,86.69333,     14.31789,121.484,0.32249
1066.71,86.97333,     13.83654,121.908,0.32145
1072.33,87.25333,     13.22266,122.055,0.32042
1077.93,87.53333,     12.56432,121.9,0.31942
1083.55,87.81333,     11.79894,122.336,0.31842
1089.17,88.09333,     10.92258,122.296,0.31744
1094.79,88.37333,      9.96641,122.349,0.31647
1100.4,88.65333,      8.97528,122.465,0.31551
1106.01,88.93333,      7.99633,122.494,0.31456
1111.63,89.21333,      7.18866,122.587,0.31362
1117.26,89.49333,      6.62792,122.563,0.31269
1122.87,89.77333,      6.42872,122.51,0.31177
1128.5,90.05333,      6.75382,122.5,0.31085
1134.12,90.33333,      7.60513,122.365,0.30994
1139.74,90.61333,      6.89555,122.436,0.30903
1145.35,90.89333,      5.83378,122.206,0.30813
1150.95,91.17333,      5.21067,122.135,0.30724
1156.56,91.45333,      5.09109,122.139,0.30635
1162.17,91.73333,      4.90696,122.028,0.30546
1167.78,92.01333,      4.86397,122.137,0.30457
1173.41,92.29333,      4.74677,122.071,0.30368
1179.04,92.57333,      4.64583,122.167,0.30279
1184.65,92.85333,      4.60617,122.022,0.30190
1190.28,93.13333,      4.56361,122.033,0.30100
1195.6,93.41333,     12.45012,122.086,0.30016
1197.22,93.49333,     12.59896,122.141,0.29990